  Freq(MHz)  	dB re. 1V/uPa	    V/Pa     	V^2cm^2/W    	  
    1.000	       -278.66	       1.167E-008	      2.044E-006
    1.050	       -278.53	       1.184E-008	      2.103E-006
    1.100	       -278.53	       1.184E-008	      2.104E-006
    1.150	       -278.23	       1.226E-008	      2.254E-006
    1.200	       -278.59	       1.176E-008	      2.073E-006
    1.250	       -279.18	       1.099E-008	      1.813E-006
    1.300	       -279.70	       1.036E-008	      1.608E-006
    1.350	       -280.41	       9.544E-009	      1.366E-006
    1.400	       -280.29	       9.676E-009	      1.404E-006
    1.450	       -280.52	       9.424E-009	      1.332E-006
    1.500	       -280.36	       9.592E-009	      1.380E-006
    1.550	       -280.08	       9.911E-009	      1.473E-006
    1.600	       -279.76	       1.028E-008	      1.586E-006
    1.650	       -279.55	       1.053E-008	      1.664E-006
    1.700	       -279.68	       1.037E-008	      1.613E-006
    1.750	       -279.79	       1.024E-008	      1.574E-006
    1.800	       -280.11	       9.870E-009	      1.461E-006
    1.850	       -280.59	       9.342E-009	      1.309E-006
    1.900	       -281.05	       8.865E-009	      1.179E-006
    1.950	       -281.58	       8.335E-009	      1.042E-006
    2.000	       -281.91	       8.026E-009	      9.661E-007
    2.050	       -281.86	       8.076E-009	      9.782E-007
    2.100	       -281.88	       8.050E-009	      9.721E-007
    2.150	       -281.53	       8.387E-009	      1.055E-006
    2.200	       -281.40	       8.508E-009	      1.086E-006
    2.250	       -281.32	       8.586E-009	      1.106E-006
    2.300	       -281.38	       8.530E-009	      1.091E-006
    2.350	       -281.61	       8.306E-009	      1.035E-006
    2.400	       -281.44	       8.472E-009	      1.077E-006
    2.450	       -281.38	       8.527E-009	      1.091E-006
    2.500	       -281.68	       8.239E-009	      1.018E-006
    2.550	       -281.89	       8.048E-009	      9.715E-007
    2.600	       -281.97	       7.968E-009	      9.524E-007
    2.650	       -282.18	       7.782E-009	      9.083E-007
    2.700	       -282.25	       7.721E-009	      8.943E-007
    2.750	       -282.14	       7.815E-009	      9.162E-007
    2.800	       -281.83	       8.100E-009	      9.842E-007
    2.850	       -281.41	       8.499E-009	      1.083E-006
    2.900	       -281.23	       8.675E-009	      1.129E-006
    2.950	       -281.29	       8.623E-009	      1.115E-006
    3.000	       -281.21	       8.699E-009	      1.135E-006
    3.050	       -281.24	       8.665E-009	      1.126E-006
    3.100	       -281.37	       8.537E-009	      1.093E-006
    3.150	       -281.52	       8.396E-009	      1.057E-006
    3.200	       -281.76	       8.161E-009	      9.992E-007
    3.250	       -282.09	       7.861E-009	      9.269E-007
    3.300	       -282.14	       7.815E-009	      9.162E-007
    3.350	       -282.04	       7.911E-009	      9.388E-007
    3.400	       -281.79	       8.134E-009	      9.923E-007
    3.450	       -281.63	       8.285E-009	      1.030E-006
    3.500	       -281.43	       8.478E-009	      1.078E-006
    3.550	       -281.56	       8.359E-009	      1.048E-006
    3.600	       -281.71	       8.213E-009	      1.012E-006
    3.650	       -281.84	       8.089E-009	      9.815E-007
    3.700	       -281.84	       8.087E-009	      9.810E-007
    3.750	       -281.86	       8.068E-009	      9.763E-007
    3.800	       -281.93	       8.011E-009	      9.626E-007
    3.850	       -282.13	       7.827E-009	      9.189E-007
    3.900	       -282.41	       7.575E-009	      8.608E-007
    3.950	       -282.57	       7.439E-009	      8.301E-007
    4.000	       -282.38	       7.604E-009	      8.672E-007
    4.050	       -282.15	       7.812E-009	      9.153E-007
    4.100	       -282.14	       7.814E-009	      9.159E-007
    4.150	       -282.15	       7.806E-009	      9.140E-007
    4.200	       -282.09	       7.860E-009	      9.267E-007
    4.250	       -282.08	       7.870E-009	      9.290E-007
    4.300	       -281.95	       7.987E-009	      9.568E-007
    4.350	       -281.93	       8.005E-009	      9.612E-007
    4.400	       -282.01	       7.933E-009	      9.441E-007
    4.450	       -282.17	       7.789E-009	      9.100E-007
    4.500	       -282.40	       7.582E-009	      8.623E-007
    4.550	       -282.51	       7.492E-009	      8.418E-007
    4.600	       -282.46	       7.529E-009	      8.504E-007
    4.650	       -282.29	       7.681E-009	      8.850E-007
    4.700	       -282.17	       7.792E-009	      9.106E-007
    4.750	       -282.13	       7.826E-009	      9.187E-007
    4.800	       -281.96	       7.984E-009	      9.562E-007
    4.850	       -281.85	       8.085E-009	      9.806E-007
    4.900	       -281.84	       8.087E-009	      9.810E-007
    4.950	       -281.93	       8.004E-009	      9.609E-007
    5.000	       -282.02	       7.925E-009	      9.420E-007
    5.050	       -281.96	       7.978E-009	      9.548E-007
    5.100	       -281.91	       8.022E-009	      9.652E-007
    5.150	       -281.78	       8.150E-009	      9.964E-007
    5.200	       -281.74	       8.183E-009	      1.005E-006
    5.250	       -281.81	       8.119E-009	      9.887E-007
    5.300	       -281.73	       8.190E-009	      1.006E-006
    5.350	       -281.65	       8.273E-009	      1.027E-006
    5.400	       -281.70	       8.220E-009	      1.014E-006
    5.450	       -281.67	       8.255E-009	      1.022E-006
    5.500	       -281.78	       8.149E-009	      9.961E-007
    5.550	       -281.69	       8.232E-009	      1.016E-006
    5.600	       -281.65	       8.272E-009	      1.026E-006
    5.650	       -281.60	       8.317E-009	      1.038E-006
    5.700	       -281.57	       8.345E-009	      1.044E-006
    5.750	       -281.64	       8.275E-009	      1.027E-006
    5.800	       -281.70	       8.221E-009	      1.014E-006
    5.850	       -281.64	       8.283E-009	      1.029E-006
    5.900	       -281.60	       8.318E-009	      1.038E-006
    5.950	       -281.61	       8.313E-009	      1.037E-006
    6.000	       -281.58	       8.340E-009	      1.043E-006
    6.050	       -281.56	       8.358E-009	      1.048E-006
    6.100	       -281.54	       8.372E-009	      1.051E-006
    6.150	       -281.44	       8.474E-009	      1.077E-006
    6.200	       -281.24	       8.674E-009	      1.129E-006
    6.250	       -281.26	       8.649E-009	      1.122E-006
    6.300	       -281.28	       8.628E-009	      1.117E-006
    6.350	       -281.37	       8.539E-009	      1.094E-006
    6.400	       -281.50	       8.415E-009	      1.062E-006
    6.450	       -281.61	       8.311E-009	      1.036E-006
    6.500	       -281.76	       8.161E-009	      9.991E-007
    6.550	       -282.02	       7.928E-009	      9.428E-007
    6.600	       -282.28	       7.694E-009	      8.879E-007
    6.650	       -282.42	       7.564E-009	      8.583E-007
    6.700	       -282.49	       7.504E-009	      8.446E-007
    6.750	       -282.57	       7.441E-009	      8.306E-007
    6.800	       -282.58	       7.433E-009	      8.287E-007
    6.850	       -282.55	       7.452E-009	      8.330E-007
    6.900	       -282.57	       7.438E-009	      8.299E-007
    6.950	       -282.51	       7.493E-009	      8.422E-007
    7.000	       -282.45	       7.545E-009	      8.539E-007
    7.050	       -282.35	       7.634E-009	      8.741E-007
    7.100	       -282.26	       7.707E-009	      8.910E-007
    7.150	       -282.28	       7.695E-009	      8.881E-007
    7.200	       -282.19	       7.769E-009	      9.054E-007
    7.250	       -282.14	       7.818E-009	      9.168E-007
    7.300	       -282.01	       7.935E-009	      9.444E-007
    7.350	       -281.91	       8.028E-009	      9.666E-007
    7.400	       -281.79	       8.136E-009	      9.929E-007
    7.450	       -281.66	       8.256E-009	      1.022E-006
    7.500	       -281.58	       8.341E-009	      1.044E-006
    7.550	       -281.41	       8.501E-009	      1.084E-006
    7.600	       -281.27	       8.640E-009	      1.120E-006
    7.650	       -281.19	       8.723E-009	      1.141E-006
    7.700	       -281.09	       8.818E-009	      1.166E-006
    7.750	       -281.08	       8.832E-009	      1.170E-006
    7.800	       -281.12	       8.792E-009	      1.160E-006
    7.850	       -281.16	       8.749E-009	      1.148E-006
    7.900	       -281.19	       8.716E-009	      1.140E-006
    7.950	       -281.22	       8.693E-009	      1.133E-006
    8.000	       -281.15	       8.757E-009	      1.150E-006
    8.050	       -281.24	       8.674E-009	      1.129E-006
    8.100	       -281.28	       8.626E-009	      1.116E-006
    8.150	       -281.33	       8.583E-009	      1.105E-006
    8.200	       -281.32	       8.594E-009	      1.108E-006
    8.250	       -281.38	       8.532E-009	      1.092E-006
    8.300	       -281.51	       8.405E-009	      1.060E-006
    8.350	       -281.56	       8.355E-009	      1.047E-006
    8.400	       -281.63	       8.290E-009	      1.031E-006
    8.450	       -281.64	       8.281E-009	      1.029E-006
    8.500	       -281.66	       8.258E-009	      1.023E-006
    8.550	       -281.65	       8.273E-009	      1.027E-006
    8.600	       -281.56	       8.352E-009	      1.046E-006
    8.650	       -281.38	       8.528E-009	      1.091E-006
    8.700	       -281.27	       8.638E-009	      1.119E-006
    8.750	       -281.22	       8.691E-009	      1.133E-006
    8.800	       -281.12	       8.785E-009	      1.158E-006
    8.850	       -281.04	       8.876E-009	      1.182E-006
    8.900	       -281.03	       8.882E-009	      1.183E-006
    8.950	       -281.07	       8.841E-009	      1.173E-006
    9.000	       -281.08	       8.828E-009	      1.169E-006
    9.050	       -281.10	       8.806E-009	      1.163E-006
    9.100	       -281.09	       8.817E-009	      1.166E-006
    9.150	       -281.14	       8.766E-009	      1.153E-006
    9.200	       -281.17	       8.743E-009	      1.147E-006
    9.250	       -281.27	       8.643E-009	      1.120E-006
    9.300	       -281.30	       8.614E-009	      1.113E-006
    9.350	       -281.26	       8.650E-009	      1.122E-006
    9.400	       -281.19	       8.724E-009	      1.142E-006
    9.450	       -281.14	       8.772E-009	      1.154E-006
    9.500	       -281.16	       8.750E-009	      1.149E-006
    9.550	       -281.17	       8.742E-009	      1.146E-006
    9.600	       -281.18	       8.730E-009	      1.143E-006
    9.650	       -281.28	       8.635E-009	      1.118E-006
    9.700	       -281.28	       8.629E-009	      1.117E-006
    9.750	       -281.32	       8.586E-009	      1.106E-006
    9.800	       -281.36	       8.547E-009	      1.096E-006
    9.850	       -281.28	       8.626E-009	      1.116E-006
    9.900	       -281.30	       8.610E-009	      1.112E-006
    9.950	       -281.33	       8.582E-009	      1.105E-006
   10.000	       -281.47	       8.441E-009	      1.069E-006
   10.050	       -281.62	       8.300E-009	      1.033E-006
   10.100	       -281.54	       8.371E-009	      1.051E-006
   10.150	       -281.54	       8.378E-009	      1.053E-006
   10.200	       -281.41	       8.503E-009	      1.084E-006
   10.250	       -281.40	       8.514E-009	      1.087E-006
   10.300	       -281.22	       8.687E-009	      1.132E-006
   10.350	       -281.21	       8.702E-009	      1.136E-006
   10.400	       -281.19	       8.719E-009	      1.140E-006
   10.450	       -281.09	       8.821E-009	      1.167E-006
   10.500	       -280.97	       8.938E-009	      1.198E-006
   10.550	       -281.10	       8.812E-009	      1.165E-006
   10.600	       -281.07	       8.840E-009	      1.172E-006
   10.650	       -281.17	       8.737E-009	      1.145E-006
   10.700	       -281.21	       8.703E-009	      1.136E-006
   10.750	       -281.29	       8.624E-009	      1.116E-006
   10.800	       -281.30	       8.613E-009	      1.113E-006
   10.850	       -281.43	       8.480E-009	      1.079E-006
   10.900	       -281.42	       8.488E-009	      1.081E-006
   10.950	       -281.61	       8.306E-009	      1.035E-006
   11.000	       -281.62	       8.301E-009	      1.034E-006
   11.050	       -281.75	       8.178E-009	      1.003E-006
   11.100	       -281.75	       8.176E-009	      1.003E-006
   11.150	       -281.82	       8.112E-009	      9.871E-007
   11.200	       -281.81	       8.119E-009	      9.889E-007
   11.250	       -281.86	       8.076E-009	      9.784E-007
   11.300	       -281.85	       8.084E-009	      9.803E-007
   11.350	       -281.90	       8.039E-009	      9.695E-007
   11.400	       -281.97	       7.971E-009	      9.529E-007
   11.450	       -281.99	       7.954E-009	      9.490E-007
   11.500	       -282.02	       7.929E-009	      9.430E-007
   11.550	       -282.03	       7.918E-009	      9.404E-007
   11.600	       -282.11	       7.841E-009	      9.223E-007
   11.650	       -282.12	       7.838E-009	      9.214E-007
   11.700	       -282.09	       7.859E-009	      9.265E-007
   11.750	       -282.08	       7.872E-009	      9.296E-007
   11.800	       -281.94	       8.001E-009	      9.601E-007
   11.850	       -281.82	       8.110E-009	      9.865E-007
   11.900	       -281.77	       8.160E-009	      9.988E-007
   11.950	       -281.60	       8.316E-009	      1.037E-006
   12.000	       -281.58	       8.339E-009	      1.043E-006
   12.050	       -281.33	       8.577E-009	      1.103E-006
   12.100	       -281.12	       8.792E-009	      1.159E-006
   12.150	       -281.13	       8.785E-009	      1.158E-006
   12.200	       -280.96	       8.949E-009	      1.201E-006
   12.250	       -280.90	       9.014E-009	      1.219E-006
   12.300	       -280.82	       9.094E-009	      1.241E-006
   12.350	       -280.75	       9.171E-009	      1.262E-006
   12.400	       -280.82	       9.101E-009	      1.243E-006
   12.450	       -280.76	       9.163E-009	      1.259E-006
   12.500	       -280.72	       9.202E-009	      1.270E-006
   12.550	       -280.69	       9.232E-009	      1.278E-006
   12.600	       -280.69	       9.236E-009	      1.280E-006
   12.650	       -280.68	       9.252E-009	      1.284E-006
   12.700	       -280.66	       9.269E-009	      1.289E-006
   12.750	       -280.68	       9.243E-009	      1.282E-006
   12.800	       -280.69	       9.237E-009	      1.280E-006
   12.850	       -280.62	       9.308E-009	      1.299E-006
   12.900	       -280.66	       9.273E-009	      1.290E-006
   12.950	       -280.66	       9.271E-009	      1.289E-006
   13.000	       -280.65	       9.274E-009	      1.290E-006
   13.050	       -280.64	       9.289E-009	      1.294E-006
   13.100	       -280.62	       9.311E-009	      1.300E-006
   13.150	       -280.66	       9.265E-009	      1.288E-006
   13.200	       -280.67	       9.259E-009	      1.286E-006
   13.250	       -280.68	       9.246E-009	      1.282E-006
   13.300	       -280.67	       9.262E-009	      1.287E-006
   13.350	       -280.62	       9.308E-009	      1.300E-006
   13.400	       -280.58	       9.354E-009	      1.313E-006
   13.450	       -280.51	       9.432E-009	      1.334E-006
   13.500	       -280.48	       9.465E-009	      1.344E-006
   13.550	       -280.45	       9.493E-009	      1.352E-006
   13.600	       -280.43	       9.519E-009	      1.359E-006
   13.650	       -280.47	       9.477E-009	      1.347E-006
   13.700	       -280.56	       9.372E-009	      1.318E-006
   13.750	       -280.56	       9.372E-009	      1.318E-006
   13.800	       -280.57	       9.369E-009	      1.317E-006
   13.850	       -280.65	       9.276E-009	      1.291E-006
   13.900	       -280.75	       9.177E-009	      1.263E-006
   13.950	       -280.75	       9.171E-009	      1.262E-006
   14.000	       -280.84	       9.080E-009	      1.237E-006
   14.050	       -280.90	       9.015E-009	      1.219E-006
   14.100	       -280.88	       9.035E-009	      1.225E-006
   14.150	       -280.92	       8.994E-009	      1.213E-006
   14.200	       -281.02	       8.890E-009	      1.186E-006
   14.250	       -281.04	       8.874E-009	      1.181E-006
   14.300	       -281.01	       8.901E-009	      1.188E-006
   14.350	       -281.08	       8.836E-009	      1.171E-006
   14.400	       -281.13	       8.778E-009	      1.156E-006
   14.450	       -281.13	       8.778E-009	      1.156E-006
   14.500	       -281.12	       8.791E-009	      1.159E-006
   14.550	       -281.17	       8.739E-009	      1.145E-006
   14.600	       -281.27	       8.639E-009	      1.119E-006
   14.650	       -281.27	       8.641E-009	      1.120E-006
   14.700	       -281.25	       8.662E-009	      1.125E-006
   14.750	       -281.36	       8.550E-009	      1.097E-006
   14.800	       -281.48	       8.434E-009	      1.067E-006
   14.850	       -281.52	       8.393E-009	      1.057E-006
   14.900	       -281.53	       8.387E-009	      1.055E-006
   14.950	       -281.59	       8.326E-009	      1.040E-006
   15.000	       -281.67	       8.248E-009	      1.020E-006
   15.050	       -281.71	       8.213E-009	      1.012E-006
   15.100	       -281.70	       8.222E-009	      1.014E-006
   15.150	       -281.71	       8.210E-009	      1.011E-006
   15.200	       -281.70	       8.224E-009	      1.015E-006
   15.250	       -281.65	       8.266E-009	      1.025E-006
   15.300	       -281.62	       8.302E-009	      1.034E-006
   15.350	       -281.57	       8.350E-009	      1.046E-006
   15.400	       -281.51	       8.403E-009	      1.059E-006
   15.450	       -281.47	       8.441E-009	      1.069E-006
   15.500	       -281.45	       8.460E-009	      1.073E-006
   15.550	       -281.41	       8.503E-009	      1.085E-006
   15.600	       -281.37	       8.545E-009	      1.095E-006
   15.650	       -281.39	       8.525E-009	      1.090E-006
   15.700	       -281.39	       8.521E-009	      1.089E-006
   15.750	       -281.33	       8.581E-009	      1.104E-006
   15.800	       -281.24	       8.671E-009	      1.128E-006
   15.850	       -281.21	       8.702E-009	      1.136E-006
   15.900	       -281.21	       8.698E-009	      1.135E-006
   15.950	       -281.20	       8.714E-009	      1.139E-006
   16.000	       -281.16	       8.746E-009	      1.147E-006
   16.050	       -281.15	       8.764E-009	      1.152E-006
   16.100	       -281.14	       8.771E-009	      1.154E-006
   16.150	       -281.10	       8.811E-009	      1.164E-006
   16.200	       -281.08	       8.834E-009	      1.171E-006
   16.250	       -281.09	       8.824E-009	      1.168E-006
   16.300	       -281.06	       8.855E-009	      1.176E-006
   16.350	       -281.02	       8.888E-009	      1.185E-006
   16.400	       -281.00	       8.907E-009	      1.190E-006
   16.450	       -280.93	       8.989E-009	      1.212E-006
   16.500	       -280.84	       9.080E-009	      1.237E-006
   16.550	       -280.80	       9.121E-009	      1.248E-006
   16.600	       -280.80	       9.122E-009	      1.248E-006
   16.650	       -280.80	       9.116E-009	      1.247E-006
   16.700	       -280.80	       9.123E-009	      1.248E-006
   16.750	       -280.79	       9.130E-009	      1.250E-006
   16.800	       -280.78	       9.145E-009	      1.255E-006
   16.850	       -280.75	       9.168E-009	      1.261E-006
   16.900	       -280.75	       9.168E-009	      1.261E-006
   16.950	       -280.75	       9.170E-009	      1.261E-006
   17.000	       -280.71	       9.217E-009	      1.274E-006
   17.050	       -280.64	       9.289E-009	      1.294E-006
   17.100	       -280.59	       9.348E-009	      1.311E-006
   17.150	       -280.57	       9.362E-009	      1.315E-006
   17.200	       -280.57	       9.361E-009	      1.314E-006
   17.250	       -280.57	       9.361E-009	      1.315E-006
   17.300	       -280.59	       9.344E-009	      1.310E-006
   17.350	       -280.60	       9.336E-009	      1.308E-006
   17.400	       -280.57	       9.360E-009	      1.314E-006
   17.450	       -280.55	       9.383E-009	      1.321E-006
   17.500	       -280.55	       9.386E-009	      1.322E-006
   17.550	       -280.56	       9.381E-009	      1.320E-006
   17.600	       -280.51	       9.427E-009	      1.333E-006
   17.650	       -280.44	       9.511E-009	      1.357E-006
   17.700	       -280.43	       9.513E-009	      1.358E-006
   17.750	       -280.47	       9.478E-009	      1.348E-006
   17.800	       -280.46	       9.479E-009	      1.348E-006
   17.850	       -280.47	       9.476E-009	      1.347E-006
   17.900	       -280.47	       9.477E-009	      1.347E-006
   17.950	       -280.42	       9.527E-009	      1.361E-006
   18.000	       -280.40	       9.555E-009	      1.369E-006
   18.050	       -280.43	       9.512E-009	      1.357E-006
   18.100	       -280.44	       9.504E-009	      1.355E-006
   18.150	       -280.40	       9.550E-009	      1.368E-006
   18.200	       -280.36	       9.590E-009	      1.379E-006
   18.250	       -280.35	       9.601E-009	      1.383E-006
   18.300	       -280.36	       9.595E-009	      1.381E-006
   18.350	       -280.34	       9.614E-009	      1.386E-006
   18.400	       -280.31	       9.652E-009	      1.397E-006
   18.450	       -280.29	       9.670E-009	      1.403E-006
   18.500	       -280.28	       9.687E-009	      1.408E-006
   18.550	       -280.25	       9.712E-009	      1.415E-006
   18.600	       -280.29	       9.670E-009	      1.403E-006
   18.650	       -280.37	       9.587E-009	      1.379E-006
   18.700	       -280.34	       9.612E-009	      1.386E-006
   18.750	       -280.28	       9.685E-009	      1.407E-006
   18.800	       -280.28	       9.687E-009	      1.407E-006
   18.850	       -280.28	       9.687E-009	      1.408E-006
   18.900	       -280.22	       9.751E-009	      1.426E-006
   18.950	       -280.16	       9.821E-009	      1.447E-006
   19.000	       -280.13	       9.852E-009	      1.456E-006
   19.050	       -280.16	       9.818E-009	      1.446E-006
   19.100	       -280.19	       9.783E-009	      1.436E-006
   19.150	       -280.18	       9.795E-009	      1.439E-006
   19.200	       -280.17	       9.801E-009	      1.441E-006
   19.250	       -280.21	       9.761E-009	      1.429E-006
   19.300	       -280.25	       9.713E-009	      1.415E-006
   19.350	       -280.28	       9.685E-009	      1.407E-006
   19.400	       -280.29	       9.676E-009	      1.404E-006
   19.450	       -280.30	       9.666E-009	      1.401E-006
   19.500	       -280.32	       9.635E-009	      1.392E-006
   19.550	       -280.36	       9.595E-009	      1.381E-006
   19.600	       -280.39	       9.562E-009	      1.372E-006
   19.650	       -280.42	       9.530E-009	      1.362E-006
   19.700	       -280.46	       9.488E-009	      1.350E-006
   19.750	       -280.51	       9.424E-009	      1.332E-006
   19.800	       -280.58	       9.355E-009	      1.313E-006
   19.850	       -280.62	       9.313E-009	      1.301E-006
   19.900	       -280.63	       9.300E-009	      1.297E-006
   19.950	       -280.64	       9.294E-009	      1.296E-006
   20.000	       -280.66	       9.272E-009	      1.290E-006




1


